{"resourceType":"Bundle","id":"tests-hiv-DrugAbuseQuestionsPatientBothCodesystems-bundle","type":"transaction","entry":[{"resource":{"resourceType":"Encounter","id":"DrugAbuseQuestionsPatientBothCodesystems-encounter-1","meta":{"profile":["http://fhir.org/guides/nachc/hiv-cds/StructureDefinition/patient-encounter"]},"status":"finished","class":{"system":"http://terminology.hl7.org/CodeSystem/v3-ActCode","code":"AMB","display":"ambulatory"},"type":[{"coding":[{"system":"http://fhir.org/guides/nachc/hiv-cds/CodeSystem/hiv-custom","code":"NACHC.A0.DE2","display":"Office or other outpatient visit for the evaluation and management of a new patient, which requires a medically appropriate history and/or examination and straightforward medical decision making. When using time for code selection, 15-29 minutes of total time is spent on the date of the encounter."},{"system":"http://www.ama-assn.org/go/cpt","code":"99202","display":"Office or other outpatient visit for the evaluation and management of a new patient, which requires a medically appropriate history and/or examination and straightforward medical decision making. When using time for code selection, 15-29 minutes of total time is spent on the date of the encounter."}]}],"subject":{"reference":"Patient/hiv-DrugAbuseQuestionsPatientBothCodesystems"},"period":{"start":"2021-05-10T14:00:00-07:00","end":"2021-05-10T15:20:00-07:00"}},"request":{"method":"PUT","url":"Encounter/DrugAbuseQuestionsPatientBothCodesystems-encounter-1"}},{"resource":{"resourceType":"Patient","id":"hiv-DrugAbuseQuestionsPatientBothCodesystems","meta":{"profile":["http://fhir.org/guides/nachc/hiv-cds/StructureDefinition/hiv-patient"]},"extension":[{"url":"http://fhir.org/guides/nachc/hiv-cds/StructureDefinition/sexualorientation","extension":[{"url":"Sexual Orientation","valueCodeableConcept":{"coding":[{"system":"http://fhir.org/guides/nachc/hiv-cds/CodeSystem/hiv-custom","code":"NACHC.A0.DE49","display":"Lesbian, gay or homosexual"},{"system":"http://snomed.info/sct","code":"38628009","display":"Lesbian, gay or homosexual"}]}}]},{"url":"http://fhir.org/guides/nachc/hiv-cds/StructureDefinition/genderidentity","extension":[{"url":"Gender Identity","valueCodeableConcept":{"coding":[{"system":"http://fhir.org/guides/nachc/hiv-cds/CodeSystem/hiv-custom","code":"NACHC.A0.DE57","display":"Female"},{"system":"http://snomed.info/sct","code":"446141000124107","display":"Female"}]}}]}],"identifier":[{"use":"usual","type":{"coding":[{"system":"http://terminology.hl7.org/CodeSystem/v2-0203","code":"MR"}]},"system":"urn:oid:1.2.36.146.595.217.0.1","value":"12345","period":{"start":"2001-05-06"},"assigner":{"display":"Acme Healthcare"}}],"active":true,"name":[{"use":"official","family":"Madelyn","given":["Ashley"]}],"gender":"female","birthDate":"2002-02-02","deceasedBoolean":false,"address":[{"use":"home","state":"HI"}]},"request":{"method":"PUT","url":"Patient/hiv-DrugAbuseQuestionsPatientBothCodesystems"}},{"resource":{"resourceType":"Observation","id":"DrugAbuseQuestionsPatientBothCodesystems-observation-q1","meta":{"profile":["http://fhir.org/guides/nachc/hiv-cds/StructureDefinition/hiv-test"]},"status":"final","code":{"coding":[{"system":"https://cde.drugabuse.gov","code":"3254039","display":"Have you used drugs other than those required for medical reasons"}]},"subject":{"reference":"Patient/hiv-DrugAbuseQuestionsPatientBothCodesystems"},"encounter":{"reference":"Encounter/DrugAbuseQuestionsPatientBothCodesystems-encounter-1"},"effectiveDateTime":"2021-03-08T10:00:00-07:00","valueBoolean":true},"request":{"method":"PUT","url":"Observation/DrugAbuseQuestionsPatientBothCodesystems-observation-q1"}},{"resource":{"resourceType":"Observation","id":"DrugAbuseQuestionsPatientBothCodesystems-observation-q10","meta":{"profile":["http://fhir.org/guides/nachc/hiv-cds/StructureDefinition/hiv-test"]},"status":"final","code":{"coding":[{"system":"https://cde.drugabuse.gov","code":"3254072","display":"Have you had medical problems as a result of your drug use (e.g., memory loss, hepatitis, convulsions, bleeding, etc.)"}]},"subject":{"reference":"Patient/hiv-DrugAbuseQuestionsPatientBothCodesystems"},"encounter":{"reference":"Encounter/DrugAbuseQuestionsPatientBothCodesystems-encounter-1"},"effectiveDateTime":"2021-03-08T10:00:00-07:00","valueBoolean":false},"request":{"method":"PUT","url":"Observation/DrugAbuseQuestionsPatientBothCodesystems-observation-q10"}},{"resource":{"resourceType":"Observation","id":"DrugAbuseQuestionsPatientBothCodesystems-observation-q7","meta":{"profile":["http://fhir.org/guides/nachc/hiv-cds/StructureDefinition/hiv-test"]},"status":"final","code":{"coding":[{"system":"https://cde.drugabuse.gov","code":"3254066","display":"Have you neglected your family because of your use of drugs"}]},"subject":{"reference":"Patient/hiv-DrugAbuseQuestionsPatientBothCodesystems"},"encounter":{"reference":"Encounter/DrugAbuseQuestionsPatientBothCodesystems-encounter-1"},"effectiveDateTime":"2021-03-08T10:00:00-07:00","valueBoolean":false},"request":{"method":"PUT","url":"Observation/DrugAbuseQuestionsPatientBothCodesystems-observation-q7"}},{"resource":{"resourceType":"Observation","id":"DrugAbuseQuestionsPatientBothCodesystems-observation-testing-1","status":"final","code":{"coding":[{"system":"http://loinc.org","code":"56888-1","display":"HIV 1+2 Ab+HIV1 p24 Ag [Presence] in Serum or Plasma by Immunoassay"}],"text":"HIV 1+2 Ab+HIV1 p24 Ag [Presence] in Serum or Plasma by Immunoassay"},"subject":{"reference":"Patient/hiv-DrugAbuseQuestionsPatientBothCodesystems"},"effectiveDateTime":"2021-03-08T10:00:00-07:00","valueCodeableConcept":{"coding":[{"system":"http://snomed.info/sct","code":"260385009","display":"Negative (qualifier value)"}],"text":"Negative (qualifier value)"}},"request":{"method":"PUT","url":"Observation/DrugAbuseQuestionsPatientBothCodesystems-observation-testing-1"}},{"resource":{"resourceType":"Observation","id":"DrugAbuseQuestionsPatient-observation-sexual-orientation","meta":{"profile":["http://hl7.org/fhir/us/core/StructureDefinition/us-core-observation-sexual-orientation|7.0.0-ballot"]},"status":"final","category":[{"coding":[{"system":"http://terminology.hl7.org/CodeSystem/observation-category","code":"social-history","display":"Social History"}]}],"code":{"coding":[{"system":"http://loinc.org","code":"76690-7","display":"Sexual orientation"}],"text":"Sexual orientation"},"subject":{"reference":"Patient/hiv-DrugAbuseQuestionsPatientBothCodesystems"},"encounter":{"reference":"Encounter/DrugAbuseQuestionsPatientBothCodesystems-encounter-1"},"effectiveDateTime":"2020-01-11","valueCodeableConcept":{"coding":[{"system":"http://fhir.org/guides/nachc/hiv-cds/CodeSystem/hiv-custom","code":"NACHC.A0.DE49","display":"Lesbian, gay or homosexual"},{"system":"http://snomed.info/sct","code":"38628009","display":"Homosexual (finding)"}],"text":"Homosexual (finding)"}},"request":{"method":"PUT","url":"Observation/DrugAbuseQuestionsPatient-observation-sexual-orientation"}},{"resource":{"resourceType":"Observation","id":"DrugAbuseQuestionsPatientBothCodesystems-observation-q6","meta":{"profile":["http://fhir.org/guides/nachc/hiv-cds/StructureDefinition/hiv-test"]},"status":"final","code":{"coding":[{"system":"https://cde.drugabuse.gov","code":"3254065","display":"Does your spouse (or parents) ever complain about your involvement with drugs"}]},"subject":{"reference":"Patient/hiv-DrugAbuseQuestionsPatientBothCodesystems"},"encounter":{"reference":"Encounter/DrugAbuseQuestionsPatientBothCodesystems-encounter-1"},"effectiveDateTime":"2021-03-08T10:00:00-07:00","valueBoolean":false},"request":{"method":"PUT","url":"Observation/DrugAbuseQuestionsPatientBothCodesystems-observation-q6"}},{"resource":{"resourceType":"Observation","id":"DrugAbuseQuestionsPatientBothCodesystems-observation-q5","meta":{"profile":["http://fhir.org/guides/nachc/hiv-cds/StructureDefinition/hiv-test"]},"status":"final","code":{"coding":[{"system":"https://cde.drugabuse.gov","code":"3254063","display":"Do you ever feel bad or guilty about your drug use"}]},"subject":{"reference":"Patient/hiv-DrugAbuseQuestionsPatientBothCodesystems"},"encounter":{"reference":"Encounter/DrugAbuseQuestionsPatientBothCodesystems-encounter-1"},"effectiveDateTime":"2021-03-08T10:00:00-07:00","valueBoolean":false},"request":{"method":"PUT","url":"Observation/DrugAbuseQuestionsPatientBothCodesystems-observation-q5"}},{"resource":{"resourceType":"Observation","id":"DrugAbuseQuestionsPatientBothCodesystems-observation-q9","meta":{"profile":["http://fhir.org/guides/nachc/hiv-cds/StructureDefinition/hiv-test"]},"status":"final","code":{"coding":[{"system":"https://cde.drugabuse.gov","code":"3254070","display":"Have you ever experienced withdrawal symptoms (felt sick) when you stopped taking drugs"}]},"subject":{"reference":"Patient/hiv-DrugAbuseQuestionsPatientBothCodesystems"},"encounter":{"reference":"Encounter/DrugAbuseQuestionsPatientBothCodesystems-encounter-1"},"effectiveDateTime":"2021-03-08T10:00:00-07:00","valueBoolean":false},"request":{"method":"PUT","url":"Observation/DrugAbuseQuestionsPatientBothCodesystems-observation-q9"}},{"resource":{"resourceType":"Observation","id":"DrugAbuseQuestionsPatientBothCodesystems-observation-screening-1","meta":{"profile":["http://fhir.org/guides/nachc/hiv-cds/StructureDefinition/hiv-test"]},"status":"final","code":{"coding":[{"system":"http://fhir.org/guides/nachc/hiv-cds/CodeSystem/hiv-custom","code":"NACHC.A2.DE1","display":"HIV Test"}]},"subject":{"reference":"Patient/hiv-DrugAbuseQuestionsPatientBothCodesystems"},"encounter":{"reference":"Encounter/DrugAbuseQuestionsPatientBothCodesystems-encounter-1"},"effectiveDateTime":"2021-03-08T10:00:00-07:00","valueCodeableConcept":{"coding":[{"system":"http://fhir.org/guides/nachc/hiv-cds/CodeSystem/hiv-custom","code":"NACHC.A2.DE215","display":"HIV proviral DNA [Presence] in Blood by Probe with amplification"},{"system":"http://loinc.org","code":"2898779","display":"HIV proviral DNA [Presence] in Blood by Probe with amplification"}]}},"request":{"method":"PUT","url":"Observation/DrugAbuseQuestionsPatientBothCodesystems-observation-screening-1"}},{"resource":{"resourceType":"Observation","id":"DrugAbuseQuestionsPatientBothCodesystems-observation-q8","meta":{"profile":["http://fhir.org/guides/nachc/hiv-cds/StructureDefinition/hiv-test"]},"status":"final","code":{"coding":[{"system":"https://cde.drugabuse.gov","code":"3254067","display":"Have you engaged in illegal activities in order to obtain drugs"}]},"subject":{"reference":"Patient/hiv-DrugAbuseQuestionsPatientBothCodesystems"},"encounter":{"reference":"Encounter/DrugAbuseQuestionsPatientBothCodesystems-encounter-1"},"effectiveDateTime":"2021-03-08T10:00:00-07:00","valueBoolean":false},"request":{"method":"PUT","url":"Observation/DrugAbuseQuestionsPatientBothCodesystems-observation-q8"}},{"resource":{"resourceType":"Observation","id":"DrugAbuseQuestionsPatientBothCodesystems-observation-q4","meta":{"profile":["http://fhir.org/guides/nachc/hiv-cds/StructureDefinition/hiv-test"]},"status":"final","code":{"coding":[{"system":"https://cde.drugabuse.gov","code":"3254061","display":"Have you had blackouts or flashbacks as a result of drug use"}]},"subject":{"reference":"Patient/hiv-DrugAbuseQuestionsPatientBothCodesystems"},"encounter":{"reference":"Encounter/DrugAbuseQuestionsPatientBothCodesystems-encounter-1"},"effectiveDateTime":"2021-03-08T10:00:00-07:00","valueBoolean":false},"request":{"method":"PUT","url":"Observation/DrugAbuseQuestionsPatientBothCodesystems-observation-q4"}},{"resource":{"resourceType":"Observation","id":"DrugAbuseQuestionsPatientBothCodesystems-observation-q3","meta":{"profile":["http://fhir.org/guides/nachc/hiv-cds/StructureDefinition/hiv-test"]},"status":"final","code":{"coding":[{"system":"https://cde.drugabuse.gov","code":"3254058","display":"Are you always able to stop using drugs when you want to"}]},"subject":{"reference":"Patient/hiv-DrugAbuseQuestionsPatientBothCodesystems"},"encounter":{"reference":"Encounter/DrugAbuseQuestionsPatientBothCodesystems-encounter-1"},"effectiveDateTime":"2021-03-08T10:00:00-07:00","valueBoolean":true},"request":{"method":"PUT","url":"Observation/DrugAbuseQuestionsPatientBothCodesystems-observation-q3"}},{"resource":{"resourceType":"Observation","id":"DrugAbuseQuestionsPatientBothCodesystems-observation-q2","meta":{"profile":["http://fhir.org/guides/nachc/hiv-cds/StructureDefinition/hiv-test"]},"status":"final","code":{"coding":[{"system":"https://cde.drugabuse.gov","code":"3254057","display":"Do you use more than one drug at a time"}]},"subject":{"reference":"Patient/hiv-DrugAbuseQuestionsPatientBothCodesystems"},"encounter":{"reference":"Encounter/DrugAbuseQuestionsPatientBothCodesystems-encounter-1"},"effectiveDateTime":"2021-03-08T10:00:00-07:00","valueBoolean":true},"request":{"method":"PUT","url":"Observation/DrugAbuseQuestionsPatientBothCodesystems-observation-q2"}}]}